Folder: fts/xrd/data

Note: README
# Requirements

You need to install:

* pandas
* matplotlib
* numpy
* scipy

If you have Anaconda, this is all default :)

File: sapphire_500C.uxd
; (content of file C:\XRD Data\marco\AnaSofia\2025_05_12\sapphire_500C.raw)
_FILEVERSION = 3
_SAMPLE =
_+SAMPLE =
_SITE = Portugal
_USER = Administrator
_GONIOMETER_CODE = 20
; Goniometer : D8 theta/2theta, stage : Unknown
_SAMPLE_CHANGER_CODE = 0
_ATTACHMENTS_CODE = 0
_GONIOMETER_RADIUS = 300
_FIXED_DIVSLIT = 0.6
_FIXED_SAMPLESLIT = 0
_SOLLER_SLITS = 2
_FIXED_DETSLIT = 0.1
_MONOCHROMATOR = 0
; Incident beam monochromator : None
_SOLLER_SLITS_2 = 2
_THIN_FILM = N
_BETA_FILTER = Y
_FIXED_ANTISLIT = 0.6
_ANALYZER_CODE = 0
; Received beam analyzer : None
_DATEMEASURED = "12-May-2025 18:12:39"
_WL_UNIT = A
_WL1 = 1.5406
_WL2 = 1.54439
_WL3 = 1.39222
_WLRATIO = 0.5
_ANODE = Cu
_V4_INF_CREATOR = XRDWizard
_V4_INF_CREATOR_VERSION = V2.9.0.22
_V4_INF_WIZARD_VERSION = V2.9.0.22
_V4_INF_WIZARD_ADDINS = V2.9.0.22
_V4_INF_WIZARD_DOCTYPE = HRXRD
_V4_INF_ALIGNMENT_STEPS = 101
_V4_INF_OSUSER = XRDBruker
_V4_INF_USER = Administrator
_V4_INF_SITE = Portugal

; Data for range 1
_DRIVE = COUPLED
_STEPTIME = 3.999
_STEPSIZE = 0.005
_STEPMODE = C
_START = 13.6823
_THETA = 5.3595
_2THETA = 13.6823
_KHI = 0.1434
_PHI = -0
_X = -27
_Y = -25
_Z = 0.0125
_ANTISCATTER = 0.499
_DETECTOR = 1
; Detector type : Scintillation counter
_HV = 573
_GAIN = 80
_LLD = 0.69
_ULD = 1.67
_DETECTORSLIT = unkn
_AUX1 = 0
_AUX2 = -7
_AUX3 = -7
_TIMESTARTED = 7
_TEMP_RATE = -1
_TEMP_DELAY = -1
_KV = 40
_MA = 40
_RANGE_WL = 1.5406
_3DPLANE = 0
_V4_D8_DIBNUM = 1
_V4_DETECTORNAME = "Detector 1"
_V4_TTLDETECTOR = None
_V4_DETECTORTYPE = 1
_V4_DETECTORFLAGS = 524545
_V4_DETECTORHV = 573
_V4_DETECTORGAIN = 80
_V4_DETECTORLLD1 = 0.69
_V4_DETECTORWW1 = 0.98
_V4_DETECTORLLD2 = 0
_V4_DETECTORWW2 = 0
_V4_DETECTORPS = 0
_V4_DETECTORDT = 0
_V4_DETECTORPILEUPTIME = 0
_V4_COUNTERS_MASK = 1
_V4_DRIVES_MASK = 0
_V4_ENCODERS_MASK = 0
_2THETACOUNTS = 1
; 2THETA  Cnt1_D1
  13.6823         32
  13.8673         40
  14.0523         43
  14.2373         31
  14.4223         41
  14.6073         39
  14.7923         38
  14.9773         31
  15.1623         33
  15.3473         41
  15.5323         31
  15.7173         33
  15.9023         32
  16.0873         29
  16.2723         34
  16.4573         32
  16.6423         40
  16.8273         29
  17.0123         32
  17.1973         35
  17.3823         32
  17.5673         38
  17.7523         31
  17.9373         36
  18.1223         31
  18.3073         29
  18.4923         35
  18.6773         30
  18.8623         32
  19.0473         33
  19.2323         39
  19.4173         29
  19.6023         26
  19.7873         24
  19.9723         32
  20.1573         29
  20.3423         31
  20.5273        401
  20.7123         26
  20.8973         51
  21.0823         36
  21.2673         19
  21.4523         31
  21.6373         17
  21.8223         20
  22.0073         19
  22.1923         23
  22.3773         24
  22.5623         20
  22.7473         22
  22.9323         16
  23.1173         18
  23.3023         19
  23.4873         16
  23.6723         14
  23.8573         14
  24.0423         20
  24.2273         22
  24.4123         15
  24.5973         13
  24.7823         25
  24.9673         17
  25.1523         19
  25.3373         35
  25.5223         19
  25.7073         19
  25.8923         21
  26.0773         13
  26.2623         19
  26.4473         15
  26.6323         17
  26.8173         10
  27.0023         15
  27.1873         17
  27.3723         16
  27.5573         18
  27.7423         23
  27.9273         16
  28.1123         14
  28.2973         15
  28.4823         15
  28.6673         19
  28.8523         15
  29.0373         21
  29.2223         28
  29.4073         23
  29.5923         20
  29.7773         31
  29.9623         18
  30.1473         21
  30.3323         32
  30.5173         25
  30.7023         19
  30.8873         19
  31.0723         27
  31.2573         21
  31.4423         17
  31.6273         30
  31.8123         21
  31.9973         20
  32.1823         12
  32.3673         18
  32.5523         19
  32.7373         15
  32.9223         14
  33.1073         22
  33.2923         15
  33.4773         24
  33.6623         12
  33.8473         17
  34.0323         15
  34.2173         18
  34.4023         22
  34.5873         18
  34.7723         17
  34.9573         22
  35.1423         12
  35.3273         20
  35.5123         16
  35.6973         15
  35.8823         15
  36.0673         19
  36.2523         20
  36.4373         21
  36.6223         18
  36.8073         25
  36.9923         19
  37.1773         36
  37.3623         35
  37.5473        991
  37.7323         44
  37.9173         44
  38.1023         45
  38.2873         35
  38.4723         33
  38.6573         42
  38.8423         46
  39.0273         46
  39.2123         49
  39.3973         51
  39.5823         83
  39.7673        167
  39.9523        387
  40.1373        217
  40.3223        239
  40.5073        265
  40.6923        433
  40.8773        685
  41.0623       1161
  41.2473       1767
  41.4323       4807
  41.6173      44899
  41.8023     708395
  41.9873       7164
  42.1723       3147
  42.3573       1638
  42.5423       1005
  42.7273        574
  42.9123        351
  43.0973        216
  43.2823        173
  43.4673        114
  43.6523         86
  43.8373         72
  44.0223         58
  44.2073         70
  44.3923         53
  44.5773         37
  44.7623         43
  44.9473         35
  45.1323         30
  45.3173         34
  45.5023         25
  45.6873         30
  45.8723         26
  46.0573         18
  46.2423         18
  46.4273         24
  46.6123         15
  46.7973         17
  46.9823         16
  47.1673         10
  47.3523         15
  47.5373         17
  47.7223         23
  47.9073         15
  48.0923         18
  48.2773         11
  48.4623         11
  48.6473         12
  48.8323         12
  49.0173         15
  49.2023         10
  49.3873          9
  49.5723         11
  49.7573         15
  49.9423         12
  50.1273          9
  50.3123         18
  50.4973         10
  50.6823          9
  50.8673         13
  51.0523         12
  51.2373         15
  51.4223          7
  51.6073         11
  51.7923         16
  51.9773          9
  52.1623          7
  52.3473          7
  52.5323         12
  52.7173          9
  52.9023         10
  53.0873          4
  53.2723         11
  53.4573         12
  53.6423         10
  53.8273         13
  54.0123          8
  54.1973         11
  54.3823          4
  54.5673         12
  54.7523          6
  54.9373         10
  55.1223         12
  55.3073          8
  55.4923         12
  55.6773          6
  55.8623         10
  56.0473         11
  56.2323         12
  56.4173         15
  56.6023         13
  56.7873          9
  56.9723         10
  57.1573         15
  57.3423          9
  57.5273          9
  57.7123          9
  57.8973         10
  58.0823         14
  58.2673         15
  58.4523         13
  58.6373         13
  58.8223         13
  59.0073          8
  59.1923         11
  59.3773         13
  59.5623         10
  59.7473         11
  59.9323         11
  60.1173         17
  60.3023          5
  60.4873          5
  60.6723         13
  60.8573         13
  61.0423         13
  61.2273          9
  61.4123         11
  61.5973          4
  61.7823          7
  61.9673         15
  62.1523         15
  62.3373         11
  62.5223         11
  62.7073         10
  62.8923         13
  63.0773         14
  63.2623          9
  63.4473          9
  63.6323          8
  63.8173         15
  64.0023         14
  64.1873          9
  64.3723         23
  64.5573        123
  64.7423         32
  64.9273         12
  65.1123          9
  65.2973          2
  65.4823          5
  65.6673         10
  65.8523         10
  66.0373          5
  66.2223          8
  66.4073          7
  66.5923         11
  66.7773         10
  66.9623          9
  67.1473         14
  67.3323          9
  67.5173          7
  67.6823          9